Folder: nimbus/trimer_offset

Note: trimer_offset/AAA.1Mb.txt
22041
25414
24465
39822
29171
28742
27586
27180
31773
27468
22867
30000
28688
37042
26643
31436
31619
28908
28980
27465
37256
31139
29964
29917
31266
36196
31304
26275
33480
32871
29122
35474
31087
27696
37259
32094
33067
32970
37563
43493
46400
38314
29917
32116
30850
35645
37044
35962
34807
39092
38660
38869
42902
34610
35856
38459
41280
36641
40247
45324
40324
47230
46549
45864
46178
37856
41001
42477
45105
45369
47118
41190
43935
40934
43108
45799
38123
44747
41013
38139
40648
45859
35327
36298
40512
42216
47410
43547
42345
37447
47119
48261
48361
44587
38885
26759
36122
33035
37682
39356
40238
34891
35191
40189
41337
36570
38983
31376
32102
35702
31716
35253
35227
40696
38936
33705
31993
33038
40132
39730
36935
36068
34811
35725
45528
41701
40571
38195
44567
35855
33734
38232
39818
37073
36355
37835
31565
36763
35445
38334
39209
42768
42298
45981
46851
49250
50363
47695
40351
46995
48958
47064
48762
40933
50004
38257
25587
30365
29947
25927
37421
32086
36903
31921
42354
37266
32345
38371
39533
47405
43364
41001
44128
40978
37999
41177
39974
33618
38924
24212
35360
30005
35637
36516
36173
41991
38448
42432
39681
44698
35674
34011
42446
40001
28724
33302
37797
39239
34395
36307
34680
29136
31175
34140
43995
45070
40992
41868
33521
38125
35505
44083
34252
41053
35021
33250
29749
33117
31627
34757
37227
40580
35457
39543
45054
41380
42878
39197
43391
39707
44757
36286
35425
39492
37528
31144
31160
39009
46591
45594
45673
47325
37702
45256
36608
46158
45350
41686
39105
46191
36007
46629
40750
35199
37777
40249
42225
39388
37108
29179
42761
32065
32869
37209
40138
49571
49192
39361
35887
44884
45519
45661
43231
30965
37566
32844
31755
37170
40415
39687
35595
33073
38818
47248
38126
34041
36952
42302
32780
35805
36939
32890
34414
40217
40225
32445
36177
22982
35846
43436
44932
39269
42912
36524
37657
28338
36655
31908
39387
37444
42320
33388
39548
41102
44448
51018
47979
46238
42562
45456
48119
39613
43602
42687
37687
39591
42880
43234
44328
39266
45441
41509
45931
44879
46648
44937
44365
42459
40004
42857
39614
41103
33333
40298
44357
41820
37488
41735
39903
46721
43492
42323
47710
40922
46310
47176
45247
47684
46141
44199
40995
38368
46255
49952
47665
46626
44875
39866
45433
41063
40642
40880
40738
38742
37025
38690
37629
40710
40951
44983
40396
49192
47944
41021
43942
42179
29987
30808
30305
25916
38090
42458
39659
39272
39630
43021
42127
37862
40805
34095
30447
27368
32149
29097
29016
30478
20940
27223
43536
39395
40045
38903
32701
41125
40080
37666
31421
26581
32485
34124
23118
24964
39367
36312
43389
40666
44362
39130
44849
46576
38783
38624
38756
44099
39822
41120
41468
40678
35655
43332
35670
43973
40963
34085
29991
36974
34705
45435
32100
37349
35008
30682
32526
38488
34563
28604
22400
32657
29145
32580
30344
38801
43256
42433
31968
35755
43530
37085
37125
39260
40012
43877
41214
39508
39602
38959
43528
34468
43418
43682
42702
46604
48559
44331
49510
49696
45863
44873
46099
45260
46102
44658
48099
42179
43899
41223
41421
41820
42310
47285


Note: trimer_offset/AAC.1Mb.txt
10351
11665
11308
15493
12167
11429
12014
11709
13140
12186
11579
13718
12846
14233
11750
12691
12667
12373
12027
11637
13471
13482
12111
12444
14100
14094
12472
12400
13137
13118
12553
14809
12853
11778
14217
12578
14017
14288
15119
16408
16443
14309
12242
13793
13034
14734
15025
15095
14343
15174
14915
13912
15288
13657
13752
14272
15054
14634
14813
15558
14848
16043
16104
15991
16519
14481
15237
15465
15737
15231
16289
14263
15916
15351
15994
16650
14475
16140
15454
14468
14976
15676
14510
14158
14512
15273
16080
15603
14655
14461
16200
15677
15924
15762
14243
11964
14480
14018
14126
14918
15015
13957
14228
15279
15637
14632
13672
12351
13637
14362
12920
13035
14542
15324
15274
14172
13228
13281
14963
14826
14789
14453
13657
13652
16666
15172
14874
14395
16261
13003
14120
14693
15913
13597
13484
14180
13813
14501
13953
14420
14250
14983
14886
15294
15448
16151
16490
16243
14218
15932
16256
15902
16984
14373
16980
14098
11634
12718
12482
12081
14343
13275
14973
12880
16031
14478
13009
14872
14616
16796
15750
14849
16019
15150
14419
15591
14752
13649
15063
10932
14209
12900
14173
14769
14455
14814
14023
15497
14955
16390
14167
13417
16535
15072
13489
14477
14329
14908
13680
15256
14127
12277
13184
14019
15317
16111
15944
15255
13453
15372
14685
15623
14234
14492
13935
12706
12325
13051
12869
14196
15582
13881
13471
14651
15703
15570
15392
14758
15333
14905
16311
13856
14294
14466
15126
13152
12561
14146
16594
15813
15582
17081
14100
15836
14137
16071
15599
15226
15402
15716
13406
16465
15150
13869
14235
15327
15731
15249
14252
12345
15981
13520
12971
14423
14435
16775
16486
14520
13942
15791
15618
15906
15996
12388
14782
13720
13337
14753
15243
15694
14556
13318
14637
15898
14582
14066
14637
15407
12965
14241
14626
13074
13738
14385
15686
13569
13905
10942
14372
15675
15990
14406
15765
14559
14286
11905
14522
13015
15534
14545
15439
13474
14873
14741
15205
16921
16097
16348
14991
15500
16964
14771
15854
15587
14182
14303
14622
15479
16263
15250
16206
15924
15919
15807
16091
15333
15418
15527
15054
15202
14827
14390
13205
15233
16024
15886
14555
15343
15343
17093
15309
15105
16605
14840
15795
15879
16003
16014
15513
15434
15502
14444
15637
15989
15939
16452
16322
14804
16000
15637
15193
15788
13934
13776
14006
14425
14183
15208
15096
15748
14785
16582
16703
14283
15555
15388
12900
13776
12656
11537
14361
15775
14826
15137
15019
15368
16037
13958
14947
13593
12366
11494
13783
11986
12551
13157
10670
12348
15779
14664
15912
15523
13184
15085
15115
15633
12909
12118
13203
13245
11756
11760
15184
14736
16236
15202
15979
13860
16094
16864
14283
14638
14754
16036
14537
14633
15410
15854
13726
15542
14091
15460
15885
13474
12637
14172
14362
16915
13349
15026
13628
13001
13789
14269
13192
11676
10238
12989
12822
12929
12854
15811
16498
15185
13414
14664
17095
14396
14691
15078
16172
17417
15847
15267
15199
14442
17156
14805
16097
15366
14731
16629
16709
15281
16448
16673
14983
15599
15941
15521
15637
15649
16219
15077
16211
15441
15460
15467
15071
15684


Note: README.txt
Files are separated into three folders: (1) coding-fisher, (2) noncoding-fisher, (3) noncoding-individual. 

Files in the /coding-fisher/ folder contain at least six columns: (1) gene, (2) len, (3) ct, (4) mu, (5) sigma, (6) region.
The len column indicates the length of the gene. The ct column is the number of variants affecting the test region (e.g. gene 
of interest). Mu and sigma are parameters from the negative binomial model which correspond to the mean and degree of dispersion
of mutation rate, respectively. Region is the bin of the genome where the test region is located. The genome was binned into 1 
megabase bins in order to correct the mutation rate for various genomic features. The remaining columns in the files contain 
the pvalue. 

Files in the /noncoding-fisher/ and /noncoding-individual/ folders have five columns: (1) chr, (2) start, (3) stops, (4) name, 
and (p). Chr means _____.  The name corresonds to the noncoding annotation file used. 

The /coding-fisher/all-cancers folder contains (1) a file with the pvalues for all cancers and (2) cancer-specific file 
containing only the significant genes and pvalues. 

Similarly, the noncoding-fisher folder contains region-specific files in both original and significant folders. Files containing only 
significant pvalues are located within the /noncoding-fisher/significant folder. 

Lastly, in the noncoding-individual folder, within each folder exists (1) a file containing all pvalues for all cancers and 
(2) significant pvalues file filtered by region and by cancer.

File: TGA.1Mb.txt
15057
18667
18359
18901
19119
19899
20015
20199
20203
19591
20692
19590
20455
20439
19790
19303
19963
20616
19501
20475
19163
19418
20155
19976
18671
19479
18833
19066
19448
18706
20189
19297
19284
18304
19066
19945
20359
20054
20088
20516
19553
19170
20076
18683
19907
18975
20667
19801
20626
20229
19285
19342
20571
18966
20459
19792
19738
20009
17771
19252
20548
19938
19592
20199
20063
20058
18484
20584
20288
19711
19751
20282
19935
20193
19904
19387
20161
20422
20129
20025
19341
19713
20409
20418
18880
20150
20292
19261
20159
19888
19196
19166
20335
20054
19638
20599
20346
19553
19961
19204
20203
18575
20064
19558
20049
18883
17679
19770
20185
19655
19924
21208
20230
19355
20020
19592
19811
20280
19600
15630
19342
20038
19791
19851
20739
19548
20268
19878
19976
19589
20080
20548
19545
20296
18136
19639
19468
19363
20157
19152
20503
20697
20866
18997
20654
20248
19747
20305
18348
19922
20590
19490
18740
19221
20257
19133
20368
19812
18769
16294
19312
19724
19363
18539
20059
20680
19008
21032
19157
17848
19617
18653
18665
19287
20285
20601
20586
18235
18402
18221
19266
19872
20472
19105
19998
20031
19708
19758
20531
20461
18624
20077
20137
20087
19740
20643
20007
18815
20881
19510
19958
20117
19555
20698
20058
19471
20207
19700
20123
18385
19044
19592
19217
19904
19694
20805
19172
18298
20695
19701
19334
20270
19129
19812
19430
19957
18511
18864
19635
18187
19959
20433
18979
19475
17152
19617
19315
17982
17936
19106
19976
16878
19809
20096
20138
20428
20151
20406
19728
20667
20798
19378
20313
18657
18856
18443
17363
18572
18065
17989
18017
19710
18095
19974
19793
19904
20315
19684
19913
19774
20111
19871
18866
20173
19982
19303
19997
19197
19594
20349
19725